ACCELEROMETER X (m/s²),ACCELEROMETER Y (m/s²),ACCELEROMETER Z (m/s²),GRAVITY X (m/s²),GRAVITY Y (m/s²),GRAVITY Z (m/s²),LINEAR ACCELERATION X (m/s²),LINEAR ACCELERATION Y (m/s²),LINEAR ACCELERATION Z (m/s²),GYROSCOPE X (rad/s),GYROSCOPE Y (rad/s),GYROSCOPE Z (rad/s),LIGHT (lux),MAGNETIC FIELD X (μT),MAGNETIC FIELD Y (μT),MAGNETIC FIELD Z (μT),ORIENTATION Z (azimuth °),ORIENTATION X (pitch °),ORIENTATION Y (roll °),PROXIMITY (i),ATMOSPHERIC PRESSURE (hPa),SOUND LEVEL (dB),LOCATION Latitude : ,LOCATION Longitude : ,LOCATION Altitude ( m),LOCATION Altitude-google ( m),LOCATION Altitude-atmospheric pressure ( m),LOCATION Speed ( Kmh),LOCATION Accuracy ( m),LOCATION ORIENTATION (°),Satellites in range,Time since start in ms ,YYYY-MO-DD HH-MI-SS_SSS
0.1436,3.3936,7.2266,-0.5434,5.0397,8.395,-4.4251,1.0608,0.8686,0.1573,-1.4974,1.4961,4529.0,14.55,-36.74,-27.82,207.09,-30.6,13.02,3.1,996.56,41.456,33.910465,-84.69901,900.47,NaN,,0.0,10.374194,,16 / 22,11,2020-02-15 08:47:52:110
-1.9272,3.0872,10.2048,0.1653,3.5511,9.1396,1.96,2.202,0.2064,0.4119,0.4131,0.5608,3926.0,-1.53,-33.25,-35.89,181.99,-21.6,-4.14,3.1,996.54,46.753,33.910465,-84.69901,900.47,NaN,,0.0,10.374194,,16 / 22,511,2020-02-15 08:47:52:610
-0.553,5.7111,9.5716,0.3261,4.2903,8.8123,-0.0078,0.2715,-0.7929,0.0721,-0.0537,0.4256,3811.0,-2.87,-33.62,-33.73,170.18,-25.11,-0.29,3.1,996.57,42.238,33.910458,-84.69901,901.48,NaN,,1.84,10.374194,270.4,17 / 22,1011,2020-02-15 08:47:53:110
0.954,1.5526,3.0321,5.0455,2.7277,7.9544,-3.8262,-0.979,-4.6065,-0.8828,-3.9395,0.346,3869.0,-21.52,-31.85,-29.78,132.08,-25.17,-10.21,3.1,996.55,43.952,33.910458,-84.69901,901.48,NaN,,1.84,10.374194,270.4,17 / 22,1513,2020-02-15 08:47:53:612
9.4052,-3.2931,5.4945,8.6309,-4.6556,-0.0598,8.1447,-1.1267,3.9043,0.3997,-1.7872,-2.0642,59065.0,-44.47,24.92,-6.02,143.52,49.27,-66.68,3.1,996.61,59.03,33.910446,-84.699005,901.63,NaN,,5.47,10.374194,270.4,17 / 22,2011,2020-02-15 08:47:54:110
3.3541,-3.2213,4.3202,7.2843,-6.471,-1.1114,-0.4476,4.9601,-4.0839,-0.9747,0.6237,-2.2688,2453.0,-34.15,31.66,21.04,105.45,50.21,-90.35,3.1,996.58,68.142,33.910446,-84.699005,901.63,NaN,,5.47,10.374194,270.4,17 / 22,2511,2020-02-15 08:47:54:610
6.6364,-5.4992,7.8503,8.4243,-4.9291,0.9519,-0.3344,0.3122,-16.1855,2.1129,-0.1744,2.3829,4536.0,-47.98,0.92,11.24,126.52,16.06,-83.84,0.0,996.55,64.856,33.910404,-84.69896,898.48,NaN,,21.31,10.374194,138.5,17 / 22,3017,2020-02-15 08:47:55:116
-5.5938,-3.426,4.6505,8.5469,-4.5102,1.6672,-13.7468,1.5437,0.7962,1.6819,-0.3606,-0.8514,199.0,-38.13,29.97,17.43,72.35,31.68,-85.99,0.0,996.64,71.074,33.910404,-84.69896,898.48,NaN,,21.31,10.374194,138.5,17 / 22,3511,2020-02-15 08:47:55:610
9.8912,2.8981,-1.5394,6.0072,-6.4472,-4.3031,18.3815,-8.9769,-1.0916,-4.5534,-0.0014,1.4755,7.0,-30.71,39.81,10.82,52.66,38.78,-75.07,0.0,996.66,69.975,33.910385,-84.698944,894.61,NaN,,13.5,10.374194,140.0,17 / 22,4010,2020-02-15 08:47:56:109
-1.6064,-6.2905,3.8018,2.5217,-9.475,0.1899,1.7833,0.7554,-3.5715,-1.5624,0.7079,-0.0858,5.0,-4.3,46.93,17.17,61.16,75.06,-85.69,0.0,996.63,71.223,33.910385,-84.698944,894.61,NaN,,13.5,10.374194,140.0,17 / 22,4511,2020-02-15 08:47:56:610
1.0654,-18.5231,-22.0999,-1.5313,-9.5957,-1.3225,-14.1907,-2.7285,2.2156,0.3213,-0.5485,3.2562,0.0,1.03,37.69,32.03,150.47,76.62,-160.76,0.0,996.5,67.945,33.910362,-84.69892,893.73,NaN,,10.44,10.374194,136.9,17 / 22,5011,2020-02-15 08:47:57:110
0.2873,-24.8328,9.2688,-2.6414,-9.3239,-1.5025,-0.4626,-1.6987,-1.56,1.8607,0.9053,0.4681,3.0,12.07,30.08,34.35,205.22,65.52,145.94,0.0,996.58,66.912,33.910362,-84.69892,893.73,NaN,,10.44,10.374194,136.9,17 / 22,5511,2020-02-15 08:47:57:610
1.7609,5.4909,3.3936,-2.3358,-8.353,-4.5762,-4.7526,-0.7315,2.4169,-1.0857,-3.0856,-0.3276,4.0,22.16,38.77,20.47,276.1,59.32,85.77,0.0,996.59,65.574,33.910336,-84.69889,896.39,NaN,,13.32,10.374194,128.7,16 / 22,6010,2020-02-15 08:47:58:109
-13.2753,-17.5811,0.9852,-3.803,-8.9933,-0.9102,6.5928,6.0847,-4.3332,-3.1199,3.4341,-1.6778,4.0,18.25,45.45,10.29,312.31,56.17,62.25,0.0,996.54,64.195,33.910336,-84.69889,896.39,NaN,,13.32,10.374194,128.7,16 / 22,6511,2020-02-15 08:47:58:610
-3.5445,-10.1989,-13.6703,-4.9006,-8.2401,2.0627,3.092,6.9717,-2.117,2.3608,0.047,3.1768,4.0,-0.84,40.6,29.86,273.89,73.08,112.34,0.0,996.58,64.696,33.910313,-84.69887,896.01,NaN,,12.17,10.374194,145.5,16 / 22,7010,2020-02-15 08:47:59:109
-3.4236,-7.0925,8.7241,-3.5835,-9.1281,-0.0845,-5.5206,1.9818,-0.4344,3.9281,1.106,-0.2687,4.0,-6.43,41.84,26.02,291.9,58.69,137.81,0.0,996.82,67.79,33.910313,-84.69887,896.01,NaN,,12.17,10.374194,145.5,16 / 22,7511,2020-02-15 08:47:59:610
-3.4176,4.9187,6.8735,-3.8333,-6.6065,-6.1507,-3.346,-7.2787,4.405,-3.168,-4.7638,-0.0449,3.0,-4.05,46.41,15.77,318.59,59.32,141.7,0.0,996.54,68.772,33.910294,-84.698845,895.78,NaN,,11.66,10.374194,146.8,15 / 22,8011,2020-02-15 08:48:00:110
-28.2982,-28.3784,-9.5118,-4.5675,-8.3238,-2.454,11.7295,4.9191,1.8763,-3.5069,2.6508,-2.6466,2.0,11.03,49.24,-4.64,4.69,42.7,76.49,0.0,996.59,68.647,33.910294,-84.698845,895.78,NaN,,11.66,10.374194,146.8,15 / 22,8511,2020-02-15 08:48:00:610
2.3498,-34.0393,-6.8854,-6.7016,-7.0977,0.9387,3.0591,5.9028,-2.3966,1.9995,-1.2221,4.0471,2.0,-10.98,47.31,12.48,330.42,65.57,106.86,0.0,996.44,66.922,33.91027,-84.698845,893.68,NaN,,10.91,10.374194,183.4,15 / 22,9010,2020-02-15 08:48:01:109
-7.1177,-5.8524,6.7753,-4.3795,-8.7329,-0.8524,-9.296,-2.6049,4.7385,4.7877,1.5476,0.0445,2.0,-5.99,40.01,27.92,292.09,55.43,135.56,0.0,996.71,67.026,33.91027,-84.698845,893.68,NaN,,10.91,10.374194,183.4,15 / 22,9511,2020-02-15 08:48:01:610
0.9684,5.3843,6.5,-3.9904,-7.4056,-5.0402,-1.6752,-1.1327,3.5925,-1.5342,-4.4669,0.305,2.0,2.04,49.11,3.93,351.86,53.4,91.86,0.0,996.61,67.82,33.910255,-84.69885,892.62,NaN,,9.04,10.374194,187.6,15 / 22,10011,2020-02-15 08:48:02:110
-11.1122,-21.8952,1.5837,-5.4551,-8.0774,-1.0812,11.0736,1.7744,-1.4521,-3.2584,1.8723,-2.7253,2.0,10.5,48.71,-10.67,14.77,40.39,73.32,0.0,996.46,68.207,33.910255,-84.69885,892.62,NaN,,9.04,10.374194,187.6,15 / 22,10512,2020-02-15 08:48:02:611
3.3326,-7.2374,-2.9567,-7.3057,-6.4171,1.2722,1.6631,2.1685,1.2592,1.7265,-2.2281,4.3857,2.0,-10.53,48.81,14.14,328.0,62.59,110.99,0.0,996.39,68.977,33.91023,-84.698875,888.91,NaN,,12.2,10.374194,203.9,15 / 22,11011,2020-02-15 08:48:03:110
0.7685,2.4563,5.6297,-4.6016,-8.6441,-0.5245,-21.0919,-4.434,-0.1581,3.7446,2.3419,0.0801,2.0,-6.56,42.23,26.25,296.39,60.44,125.58,0.0,996.63,66.848,33.91023,-84.698875,888.91,NaN,,12.2,10.374194,203.9,15 / 22,11511,2020-02-15 08:48:03:610
-0.9792,5.6273,7.3128,-3.4445,-7.9518,-4.5908,-3.3598,3.0172,7.2309,0.1408,-3.6327,0.5533,1.0,2.23,47.89,13.78,329.43,56.72,98.72,0.0,996.56,67.463,33.910213,-84.6989,888.99,NaN,,10.69,10.374194,216.7,15 / 22,12011,2020-02-15 08:48:04:110
-4.5524,-23.6992,-3.2225,-4.2752,-8.618,-1.9037,9.1198,4.755,0.6363,-2.372,2.3124,-2.1993,2.0,13.41,47.48,3.3,344.6,45.25,71.96,0.0,996.46,68.758,33.910213,-84.6989,888.99,NaN,,10.69,10.374194,216.7,15 / 22,12511,2020-02-15 08:48:04:610
0.2466,-9.0772,-16.7419,-6.1646,-7.2117,2.4817,-3.1166,-5.6789,8.3411,3.9711,-2.5633,2.0512,1.0,-9.06,44.7,18.11,318.68,65.76,104.3,0.0,996.32,66.885,33.910183,-84.698906,894.35,NaN,,11.56,10.374194,192.7,15 / 22,13011,2020-02-15 08:48:05:110
-11.3923,-14.2976,6.4784,-4.6458,-8.6307,-0.3137,-10.0991,-0.0611,-5.1137,2.4699,1.4913,0.174,1.0,-8.92,45.64,20.04,309.9,71.33,104.9,0.0,996.54,67.67,33.910183,-84.698906,894.35,NaN,,11.56,10.374194,192.7,15 / 22,13511,2020-02-15 08:48:05:610
-5.3281,2.2804,1.4065,-1.8945,-9.2168,-2.7626,-1.9188,1.7964,4.1071,2.3471,-1.6394,-0.3252,1.0,-0.56,47.03,14.3,328.53,61.01,93.41,0.0,996.52,61.359,33.910156,-84.698906,891.74,NaN,,9.83,10.374194,182.1,15 / 22,14011,2020-02-15 08:48:06:110
7.3439,-14.525,-4.9486,0.0713,-9.1293,-3.5807,-3.1146,4.0933,2.8346,-1.6641,4.4063,-1.05,1.0,-13.58,46.13,14.81,338.89,78.74,72.86,0.0,996.38,66.449,33.910156,-84.698906,891.74,NaN,,9.83,10.374194,182.1,15 / 22,14511,2020-02-15 08:48:06:610
1.8135,-5.7051,-3.6785,4.9111,-8.4727,-0.5141,0.6846,-4.0449,-8.0888,1.2616,-0.5687,-1.4198,0.0,-36.51,27.61,22.23,178.95,64.92,-120.08,0.0,996.37,61.641,33.910126,-84.69891,888.63,NaN,,13.9,10.374194,197.1,15 / 22,15011,2020-02-15 08:48:07:110
6.634,5.4753,0.7805,3.1573,4.8585,7.9119,-0.5363,-4.0191,4.5164,0.327,-1.1059,-0.8829,1677.0,-0.61,-34.72,-34.64,208.9,-25.16,-17.52,3.1,996.37,45.812,33.910126,-84.69891,888.63,NaN,,13.9,10.374194,197.1,15 / 22,15511,2020-02-15 08:48:07:610
0.389,3.9383,8.6439,1.4684,4.3557,8.6627,-0.5853,-0.4199,0.1466,-0.3214,-0.0828,-0.8639,1764.0,8.79,-33.41,-36.52,225.22,-22.04,-14.84,3.1,996.35,42.539,33.910095,-84.69893,889.59,NaN,,9.79,10.374194,194.6,15 / 22,16011,2020-02-15 08:48:08:110
0.4501,4.2663,9.2304,1.675,4.2239,8.6904,-1.6171,0.8287,-1.8882,-0.2646,0.1832,0.3495,1866.0,17.71,-31.23,-36.66,242.18,-26.73,-9.66,3.1,996.34,35.523,33.910095,-84.69893,889.59,NaN,,9.79,10.374194,194.6,15 / 22,16511,2020-02-15 08:48:08:610
-3.1267,7.5211,9.4112,1.2836,5.167,8.2356,-0.0874,-0.2148,0.3902,1.0128,-0.0532,-0.3675,1817.0,16.4,-32.13,-38.65,241.26,-26.65,-11.66,3.1,996.4,43.834,33.910095,-84.69893,889.59,NaN,,9.79,10.374194,194.6,15 / 22,17011,2020-02-15 08:48:09:110
-0.4692,5.7243,9.1203,0.4443,4.981,8.4358,-1.3875,1.0033,0.7275,-0.2334,0.5632,-0.0995,1864.0,21.38,-35.17,-33.86,239.79,-30.51,-4.79,3.1,996.34,37.117,33.910095,-84.69893,889.59,NaN,,9.79,10.374194,194.6,15 / 22,17511,2020-02-15 08:48:09:610
0.8679,4.854,7.8275,1.2638,5.1272,8.2635,-0.864,-0.0042,-0.2442,0.2442,-0.111,-0.1196,1761.0,19.04,-33.14,-33.96,241.04,-30.02,-8.19,3.1,996.34,41.674,33.91011,-84.69893,895.43,NaN,,0.0,10.374194,,16 / 22,18010,2020-02-15 08:48:10:109
-1.3227,6.5515,7.9831,0.3929,5.5487,8.0764,-0.8092,-0.3829,-0.7368,-0.073,-0.212,0.1627,1836.0,22.85,-32.58,-32.06,248.06,-34.3,-2.93,3.1,996.35,38.787,33.91011,-84.69893,895.43,NaN,,0.0,10.374194,,16 / 22,18511,2020-02-15 08:48:10:610
-2.4025,6.816,7.5857,-1.4274,6.3816,7.3081,-0.8127,0.5652,-0.3417,0.3801,0.654,-0.1634,1990.0,25.73,-32.01,-30.52,257.73,-37.76,4.61,3.1,996.35,38.01,33.91012,-84.69893,899.33,NaN,,0.0,10.374194,,16 / 22,19012,2020-02-15 08:48:11:111