ACCELEROMETER X (m/s²),ACCELEROMETER Y (m/s²),ACCELEROMETER Z (m/s²),GRAVITY X (m/s²),GRAVITY Y (m/s²),GRAVITY Z (m/s²),LINEAR ACCELERATION X (m/s²),LINEAR ACCELERATION Y (m/s²),LINEAR ACCELERATION Z (m/s²),GYROSCOPE X (rad/s),GYROSCOPE Y (rad/s),GYROSCOPE Z (rad/s),LIGHT (lux),MAGNETIC FIELD X (μT),MAGNETIC FIELD Y (μT),MAGNETIC FIELD Z (μT),ORIENTATION Z (azimuth °),ORIENTATION X (pitch °),ORIENTATION Y (roll °),PROXIMITY (i),ATMOSPHERIC PRESSURE (hPa),SOUND LEVEL (dB),LOCATION Latitude : ,LOCATION Longitude : ,LOCATION Altitude ( m),LOCATION Altitude-google ( m),LOCATION Altitude-atmospheric pressure ( m),LOCATION Speed ( Kmh),LOCATION Accuracy ( m),LOCATION ORIENTATION (°),Satellites in range,Time since start in ms ,YYYY-MO-DD HH-MI-SS_SSS
-0.2574,3.3098,9.1574,-0.2797,3.3051,9.2287,0.0119,-0.0038,-0.1486,-0.074,0.0901,0.0282,2.0,-112.35,-65.12,-261.28,75.66,-20.5,1.01,3.1,977.79,46.991,33.910336,-84.69874,899.66,NaN,,0.0,41.496777,,16 / 22,15,2020-02-12 20:32:54:441
-0.6656,3.5445,9.2388,-0.685,3.4838,9.1413,-0.4678,-0.0565,-0.2588,-4.0E-4,0.1251,0.0037,4.0,-110.26,-66.56,-259.46,78.68,-20.54,3.78,3.1,977.79,44.775,33.910336,-84.69874,899.66,NaN,,0.0,41.496777,,16 / 22,515,2020-02-12 20:32:54:941
0.0048,1.6735,10.06,-0.2318,3.2996,9.232,-1.6807,1.0663,1.6413,0.1173,-0.7889,1.557,4.0,-108.19,-69.39,-260.52,80.96,-20.04,5.22,3.1,977.8,41.243,33.910336,-84.69874,899.66,NaN,,0.0,41.496777,,16 / 22,1015,2020-02-12 20:32:55:441
-0.7745,2.7568,8.5601,-1.0169,3.3469,9.1616,0.1216,-0.5134,-0.4375,-0.1386,0.0034,0.0244,2.0,-105.45,-71.49,-259.08,80.65,-20.96,6.19,3.1,977.78,48.11,33.910336,-84.69874,899.66,NaN,,0.0,41.496777,,16 / 22,1515,2020-02-12 20:32:55:941
-0.5973,2.3594,9.2664,-1.1042,2.3046,9.4678,0.0491,-0.1649,1.0485,0.1159,0.1115,0.0723,0.0,-105.52,-67.99,-259.05,86.85,-17.08,6.13,3.1,977.77,41.347,33.910336,-84.69874,899.66,NaN,,0.0,41.496777,,16 / 22,2015,2020-02-12 20:32:56:441
-1.5765,2.3366,9.6027,-2.2042,2.517,9.2183,0.3814,-1.5091,2.1404,0.1563,0.582,0.8954,3.0,-101.99,-66.27,-253.51,102.23,-8.49,9.31,3.1,977.75,57.264,33.91034,-84.69874,902.31,NaN,,0.0,13.832258,,16 / 22,2516,2020-02-12 20:32:56:942
-1.0438,5.6908,6.7909,-2.5945,6.0023,7.3083,1.5466,-0.3979,-0.2369,0.2644,-0.3389,-0.033,0.0,-96.48,-94.32,-240.79,79.19,-36.34,22.47,3.1,977.75,67.86,33.91034,-84.69874,902.31,NaN,,0.0,13.832258,,16 / 22,3016,2020-02-12 20:32:57:442
-0.7338,5.8536,7.0327,-1.6645,6.6185,7.0424,1.4263,-0.5781,0.4006,0.4856,-0.9332,-0.8048,8.0,-99.34,-88.14,-248.97,67.31,-39.46,15.51,3.1,977.76,63.614,33.91034,-84.69874,902.31,NaN,,0.0,13.832258,,16 / 22,3515,2020-02-12 20:32:57:941
-1.9009,7.0351,4.4159,-0.5673,7.0396,6.8039,-1.397,-0.7287,-2.2832,-0.4542,-0.3356,-0.3331,1.0,-109.22,-88.16,-256.46,45.81,-47.07,3.73,3.1,977.77,47.912,33.91034,-84.69874,902.31,NaN,,0.0,13.832258,,16 / 22,4015,2020-02-12 20:32:58:441
0.5722,5.8979,7.4576,-0.4754,7.0393,6.8112,1.7435,-0.7187,0.7705,-0.1127,0.3453,-0.125,0.0,-116.24,-82.34,-259.46,46.3,-45.6,2.9,3.1,977.77,36.318,33.910347,-84.698746,910.76,NaN,,2.99,13.832258,341.2,15 / 22,4515,2020-02-12 20:32:58:941
-1.9033,6.7011,7.0782,-0.4298,6.9307,6.9247,-1.8313,1.3405,0.975,0.0252,-0.0623,0.462,0.0,-114.74,-82.88,-260.44,49.29,-45.41,5.18,3.1,977.73,52.359,33.910347,-84.698746,910.76,NaN,,2.99,13.832258,341.2,15 / 22,5016,2020-02-12 20:32:59:442
-0.7422,6.3456,8.2393,-0.812,6.7808,7.0378,0.445,0.3785,1.6325,0.5818,0.0852,-0.0092,2.0,-116.04,-78.36,-260.09,54.58,-41.39,6.65,3.1,977.75,51.834,33.910355,-84.69875,914.7,NaN,,3.2,13.832258,340.8,16 / 22,5515,2020-02-12 20:32:59:941
-0.0515,7.9771,6.1026,-0.6116,7.4876,6.3033,0.8923,0.5093,-0.7601,0.28,-0.0239,0.0926,2.0,-113.36,-84.96,-258.32,50.09,-45.09,5.39,3.1,977.75,52.155,33.910355,-84.69875,914.7,NaN,,3.2,13.832258,340.8,16 / 22,6015,2020-02-12 20:33:00:441
-1.4436,7.3822,6.1792,-0.5902,7.2843,6.5392,0.0107,-0.6178,-1.5289,0.4292,-0.1867,-0.054,3.0,-114.33,-86.19,-259.4,47.74,-47.06,4.88,3.1,977.73,65.035,33.910362,-84.69876,914.61,NaN,,4.46,13.832258,341.0,16 / 22,6515,2020-02-12 20:33:00:941
-0.1317,7.454,5.0013,-0.6807,7.7275,5.9993,1.6283,-1.4586,-0.1856,0.4987,-0.4959,-0.4419,3.0,-115.87,-83.99,-258.79,47.55,-49.8,6.51,3.1,977.76,50.085,33.910362,-84.69876,914.61,NaN,,4.46,13.832258,341.0,16 / 22,7015,2020-02-12 20:33:01:441
-0.2203,5.1138,5.6225,-0.2489,6.3255,7.4897,-0.6013,-0.5272,-0.9628,-0.6268,0.3395,0.2089,3.0,-116.72,-85.21,-261.24,45.06,-44.48,0.91,3.1,977.75,43.87,33.910374,-84.69877,912.56,NaN,,4.18,13.832258,327.0,16 / 22,7515,2020-02-12 20:33:01:941
-0.0227,2.1164,12.1297,-0.3329,2.1464,9.5631,-0.0715,0.5139,1.337,-1.2004,-0.1779,-0.5504,5.0,-119.71,-59.2,-261.76,77.3,-20.17,4.4,3.1,977.75,43.532,33.910374,-84.69877,912.56,NaN,,4.18,13.832258,327.0,16 / 22,8015,2020-02-12 20:33:02:441
-2.612,1.5466,10.5496,-0.683,2.8779,9.35,-2.401,-1.0268,1.3546,0.7587,-0.579,0.3958,5.0,-121.45,-52.31,-260.63,90.78,-11.65,7.92,3.1,977.77,44.829,33.910385,-84.69878,914.2,NaN,,4.75,10.374194,330.0,16 / 22,8516,2020-02-12 20:33:02:942
-1.4077,3.08,10.3712,-1.3112,2.8157,9.3018,0.2474,0.3962,0.9774,0.3793,0.1202,-0.4868,5.0,-117.7,-58.39,-260.46,83.43,-16.33,5.7,3.1,977.78,53.471,33.910385,-84.69878,914.2,NaN,,4.75,10.374194,330.0,16 / 22,9016,2020-02-12 20:33:03:442
-0.9313,3.9503,8.7672,-0.7751,3.2308,9.2267,-0.5362,0.8891,-0.0696,0.2797,-0.3976,0.1643,5.0,-115.93,-57.11,-262.17,83.43,-16.95,7.19,3.1,977.8,56.022,33.910393,-84.698784,913.21,NaN,,4.93,10.374194,324.7,16 / 22,9516,2020-02-12 20:33:03:942
-1.2306,3.566,8.608,-0.7117,3.3676,9.1828,-0.6429,-0.4462,-0.7277,0.5955,0.4585,-0.354,5.0,-118.14,-56.77,-261.86,89.46,-12.9,3.44,3.1,977.77,53.609,33.910393,-84.698784,913.21,NaN,,4.93,10.374194,324.7,16 / 22,10015,2020-02-12 20:33:04:441
-0.5985,2.9196,8.6295,-0.8985,2.7007,9.3845,0.1221,0.1995,-2.2425,0.0227,0.1383,-0.1791,5.0,-118.35,-58.38,-261.26,84.74,-15.93,4.88,3.1,977.77,48.495,33.9104,-84.6988,916.71,NaN,,4.61,10.374194,319.2,16 / 22,10516,2020-02-12 20:33:04:942
0.0706,2.4611,7.642,0.0301,3.0064,9.3344,-0.1962,-0.4173,0.0714,-0.2215,0.3501,0.3394,5.0,-119.58,-62.12,-262.79,75.65,-19.69,-0.26,3.1,977.78,48.47,33.9104,-84.6988,916.71,NaN,,4.61,10.374194,319.2,16 / 22,11015,2020-02-12 20:33:05:441
0.7194,3.5349,7.0315,-0.6879,4.7091,8.5745,0.7906,-1.3323,-0.4321,0.2532,0.2166,0.5484,6.0,-118.13,-63.81,-263.99,71.56,-25.1,5.95,3.1,977.78,47.941,33.910404,-84.69881,918.64,NaN,,3.28,10.374194,313.7,16 / 22,11515,2020-02-12 20:33:05:941
-1.7058,4.0365,9.89,-0.9361,5.3516,8.1642,-0.4703,-1.1284,1.7936,0.3507,-0.1931,0.0737,8.0,-113.54,-72.29,-263.67,62.98,-32.0,5.96,3.1,977.75,57.875,33.910404,-84.69881,918.64,NaN,,3.28,10.374194,313.7,16 / 22,12015,2020-02-12 20:33:06:441
0.2574,6.0774,8.8438,0.0249,6.1501,7.6384,0.3442,1.3123,0.7305,0.0872,-0.2513,-0.0905,8.0,-117.57,-79.8,-262.63,50.1,-39.05,0.95,3.1,977.77,49.598,33.910408,-84.698814,918.58,NaN,,3.56,10.374194,313.2,16 / 22,12515,2020-02-12 20:33:06:941
-0.0934,7.2421,7.4337,0.104,6.975,6.8927,0.4695,0.6341,-1.1481,0.0607,0.2773,0.0652,9.0,-118.99,-83.44,-260.02,42.13,-44.49,-1.11,3.1,977.78,47.105,33.910408,-84.698814,918.58,NaN,,3.56,10.374194,313.2,16 / 22,13015,2020-02-12 20:33:07:441
-0.3914,6.0774,9.2077,0.5125,5.3948,8.1733,-0.8696,1.4625,0.8697,-0.9112,-0.1952,0.0032,8.0,-122.26,-74.86,-264.68,50.38,-33.38,-3.59,3.1,977.77,60.549,33.91041,-84.69883,916.84,NaN,,4.5,10.374194,309.1,16 / 22,13516,2020-02-12 20:33:07:942
-0.5746,4.0233,7.3882,0.1557,4.5365,8.6929,-0.3969,-0.6209,-1.1343,0.5313,0.0898,0.2936,5.0,-125.65,-62.64,-263.98,67.33,-24.12,-0.79,3.1,977.77,42.484,33.91041,-84.69883,916.84,NaN,,4.5,10.374194,309.1,16 / 22,14015,2020-02-12 20:33:08:441
0.0395,3.6869,6.4054,0.3956,4.5608,8.6725,-0.6057,-0.625,-1.3462,-0.691,0.5903,0.5819,7.0,-118.25,-73.0,-263.38,58.78,-29.04,-2.03,3.1,977.79,47.253,33.91042,-84.698845,915.82,NaN,,3.74,10.374194,309.1,16 / 22,14515,2020-02-12 20:33:08:941
1.4544,3.5313,6.7621,-0.2912,3.6179,9.1102,1.8735,-0.2153,0.1028,-0.2042,0.3003,0.2596,6.0,-118.53,-68.86,-262.51,70.14,-24.58,1.44,3.1,977.8,52.856,33.91042,-84.698845,915.82,NaN,,3.74,10.374194,309.1,16 / 22,15016,2020-02-12 20:33:09:442
0.2083,3.4475,8.8151,0.5409,4.1288,8.8787,-1.4811,-1.6154,2.9801,-0.4733,0.4452,0.4767,6.0,-120.06,-67.36,-262.15,63.22,-24.9,-3.49,3.1,977.81,44.92,33.910423,-84.69885,914.96,NaN,,5.33,10.374194,300.6,16 / 22,15515,2020-02-12 20:33:09:941
0.7877,2.1152,9.3669,-1.2392,2.7724,9.3246,-0.1992,1.0697,0.5447,-0.5779,-0.7695,-0.1836,6.0,-111.03,-60.75,-260.37,80.09,-20.45,9.16,3.1,977.79,42.184,33.910423,-84.69885,914.96,NaN,,5.33,10.374194,300.6,16 / 22,16015,2020-02-12 20:33:10:441
-0.4489,0.9265,11.1768,-0.0924,3.5598,9.1373,-1.0705,-0.6278,1.5365,0.819,-0.8816,0.0674,5.0,-120.27,-62.29,-261.94,79.14,-19.85,4.67,3.1,977.8,49.988,33.91043,-84.69888,909.16,NaN,,5.18,10.374194,302.3,16 / 22,16515,2020-02-12 20:33:10:941
-0.2143,1.0295,8.6954,-0.6238,1.9367,9.5932,1.2607,1.0928,-0.6569,-0.8427,0.1024,-1.0943,4.0,-118.99,-56.86,-261.85,85.68,-14.81,3.17,3.1,977.8,40.837,33.91043,-84.69888,909.16,NaN,,5.18,10.374194,302.3,16 / 22,17015,2020-02-12 20:33:11:441
0.1544,0.3124,10.801,-0.4845,2.4146,9.4924,-0.9919,0.2021,-1.4528,0.1965,-0.1354,0.665,2.0,-121.86,-53.61,-259.73,85.74,-14.25,2.92,3.1,977.79,44.522,33.910435,-84.69889,908.7,NaN,,4.46,10.374194,302.5,16 / 22,17515,2020-02-12 20:33:11:941
-0.504,1.9584,9.4758,-0.9393,2.9965,9.2903,0.4122,-0.6101,-0.0619,0.2123,-0.0355,-0.7695,1.0,-117.73,-57.1,-261.37,85.4,-14.67,1.63,3.1,977.79,43.664,33.910435,-84.69889,908.7,NaN,,4.46,10.374194,302.5,16 / 22,18016,2020-02-12 20:33:12:442
-1.3096,3.3589,7.9137,0.0128,2.5816,9.4607,-0.1346,0.1553,-2.0986,0.6257,-0.6846,-0.0755,1.0,-116.28,-56.76,-259.52,87.08,-14.17,3.24,3.1,977.79,42.643,33.910442,-84.698906,908.49,NaN,,6.66,10.374194,293.4,16 / 22,18516,2020-02-12 20:33:12:942
1.6196,2.4133,5.4418,0.3774,2.9134,9.3563,2.0564,-0.8385,-1.0764,0.593,-0.4562,-0.262,1.0,-121.47,-58.81,-263.44,85.48,-13.99,-0.78,3.1,977.79,47.469,33.910442,-84.698906,908.49,NaN,,6.66,10.374194,293.4,16 / 22,19015,2020-02-12 20:33:13:441
-1.7417,2.0218,9.0856,-0.184,2.2017,9.5545,-0.1083,-0.0766,1.1941,-0.2551,0.2157,-0.0416,2.0,-119.36,-54.4,-262.11,87.38,-12.97,1.1,3.1,977.8,41.328,33.910446,-84.69892,910.49,NaN,,3.53,10.374194,280.3,16 / 22,19515,2020-02-12 20:33:13:941
-0.1879,2.1068,8.7217,-0.4337,3.5416,9.1345,0.471,-1.3345,0.4581,0.2476,0.2316,0.6953,3.0,-115.68,-63.74,-260.62,76.39,-20.21,1.73,3.1,977.79,39.986,33.910446,-84.69892,910.49,NaN,,3.53,10.374194,280.3,16 / 22,20015,2020-02-12 20:33:14:441
0.231,5.2634,9.7979,-0.0036,4.7504,8.5793,-1.4229,-2.2121,1.6422,0.8227,0.3591,1.1748,0.0,-111.8,-74.87,-259.9,73.48,-23.82,1.47,3.1,977.78,44.813,33.910446,-84.69894,912.04,NaN,,2.81,10.374194,280.3,16 / 22,20515,2020-02-12 20:33:14:941
-1.5562,2.0565,11.5599,0.157,3.253,9.2501,-1.6015,-1.2878,-0.9661,-0.5653,0.7244,2.2509,1.0,-110.77,-85.17,-255.53,79.31,-23.08,0.74,3.1,977.77,60.022,33.910446,-84.69894,912.04,NaN,,2.81,10.374194,280.3,16 / 22,21016,2020-02-12 20:33:15:442
1.5861,3.73,8.3195,1.8172,3.6722,8.9097,-2.1889,-1.6404,0.8247,-0.3507,1.0426,1.4211,0.0,-138.39,-101.78,-250.06,84.99,-21.99,-11.53,3.1,977.78,59.404,33.910442,-84.698944,908.01,NaN,,2.3,10.374194,280.3,16 / 22,21516,2020-02-12 20:33:15:942
-2.0733,-0.2023,14.6674,-0.0259,1.641,9.6683,1.8165,-1.6554,3.7758,-0.2974,0.6739,0.1316,0.0,-145.07,-92.65,-254.39,110.28,-9.17,-1.79,3.1,977.8,62.485,33.910442,-84.698944,908.01,NaN,,2.3,10.374194,280.3,16 / 22,22015,2020-02-12 20:33:16:441
0.8715,1.5705,12.2303,1.1698,2.8916,9.2973,-0.9596,-1.4805,3.3341,0.3546,0.6667,0.4444,0.0,-147.38,-91.17,-254.08,100.49,-14.23,-5.48,3.1,977.81,63.687,33.910435,-84.698944,907.06,NaN,,4.46,10.374194,155.2,16 / 22,22515,2020-02-12 20:33:16:941
3.1614,0.2023,11.5994,-0.7364,2.7493,9.3845,0.7228,-1.7155,-0.7788,-0.0567,0.2648,-0.3226,0.0,-142.13,-96.19,-254.56,99.44,-15.66,0.23,3.1,977.82,63.181,33.910435,-84.698944,907.06,NaN,,4.46,10.374194,155.2,16 / 22,23016,2020-02-12 20:33:17:442
-2.5605,0.4752,14.3562,0.5327,1.6241,9.6565,-1.7012,-0.0222,-0.0559,0.1059,-0.0394,0.6077,0.0,-136.46,-93.25,-255.89,111.58,-9.53,-3.16,3.1,977.79,56.18,33.910423,-84.69894,905.25,NaN,,6.12,10.374194,154.5,16 / 22,23515,2020-02-12 20:33:17:941
2.5222,2.6802,12.1704,-0.3293,2.5506,9.4634,1.788,0.1746,2.3778,0.5068,-0.0764,-0.1553,0.0,-139.32,-96.46,-256.45,107.87,-11.85,-3.45,3.1,977.78,57.327,33.910423,-84.69894,905.25,NaN,,6.12,10.374194,154.5,16 / 22,24016,2020-02-12 20:33:18:442
-2.1415,3.1877,10.692,0.1479,2.5432,9.47,0.1457,-0.7706,-0.1644,-0.0381,0.455,0.7662,0.0,-138.55,-94.15,-255.37,104.23,-13.09,-2.38,3.1,977.82,52.025,33.91041,-84.69892,903.41,NaN,,5.4,10.374194,154.5,16 / 22,24517,2020-02-12 20:33:18:943
0.5937,1.0845,8.1543,-0.6276,2.5624,9.4451,-1.4436,-0.9212,-1.8171,0.2557,-0.0143,-0.3682,0.0,-140.72,-93.57,-256.43,102.61,-13.29,2.8,3.1,977.82,54.832,33.91041,-84.69892,903.41,NaN,,5.4,10.374194,154.5,16 / 22,25015,2020-02-12 20:33:19:441
-0.9517,3.1722,4.6457,0.0069,2.9036,9.3669,0.0295,0.4968,-2.9893,-0.2088,0.4549,0.0482,0.0,-138.51,-99.41,-253.39,98.05,-17.22,-0.04,3.1,977.8,58.056,33.910404,-84.698906,902.85,NaN,,5.33,10.374194,129.3,16 / 22,25515,2020-02-12 20:33:19:941
-1.2773,2.0206,8.1387,-1.1011,2.2714,9.4762,0.5523,-0.8618,-0.7295,-0.4129,0.5707,-0.6252,0.0,-137.39,-96.66,-254.59,106.85,-10.87,1.78,3.1,977.8,58.721,33.910404,-84.698906,902.85,NaN,,5.33,10.374194,129.3,16 / 22,26016,2020-02-12 20:33:20:442
-1.8219,3.0621,8.2369,-0.1498,2.5755,9.4612,-0.3855,1.17,-2.0779,0.406,0.2353,-0.29,0.0,-137.82,-95.31,-256.0,103.75,-13.22,0.34,3.1,977.82,56.881,33.910393,-84.69889,902.61,NaN,,5.76,10.374194,131.4,16 / 22,26515,2020-02-12 20:33:20:941
2.339,-2.0398,9.884,-0.3098,2.4174,9.499,-0.4048,0.6712,-1.3881,0.8093,0.3743,-0.4291,0.0,-140.36,-90.66,-257.46,108.58,-9.14,1.79,3.1,977.81,59.402,33.910393,-84.69889,902.61,NaN,,5.76,10.374194,131.4,16 / 22,27017,2020-02-12 20:33:21:443
-1.2198,2.3857,8.5326,-0.4146,1.8456,9.6225,0.738,0.5818,-1.7108,0.3786,-0.0817,-0.2979,0.0,-137.15,-93.83,-257.12,106.96,-10.85,2.47,3.1,977.82,56.944,33.910385,-84.698875,902.24,NaN,,4.75,10.374194,130.4,16 / 22,27515,2020-02-12 20:33:21:941
-0.2789,2.2349,8.5625,-0.0064,2.7141,9.4236,0.1036,0.0669,-1.9214,0.203,0.2497,-0.124,0.0,-141.72,-94.68,-255.24,103.99,-13.25,-2.31,3.1,977.84,61.865,33.910385,-84.698875,902.24,NaN,,4.75,10.374194,130.4,16 / 22,28017,2020-02-12 20:33:22:443
1.4113,2.2816,7.5713,0.1343,1.834,9.6327,-1.1334,0.3841,-1.2343,-0.1615,0.1087,-0.3306,0.0,-139.17,-92.14,-257.61,107.15,-10.78,-0.8,3.1,977.83,53.521,33.910378,-84.69885,902.37,NaN,,5.83,10.374194,131.2,16 / 21,28516,2020-02-12 20:33:22:942
-0.9421,2.2325,7.3044,0.2669,2.8534,9.3785,1.2963,-0.9422,-1.9545,0.5233,0.617,0.2007,1.0,-144.25,-94.92,-253.29,102.35,-14.4,-5.73,3.1,977.85,63.75,33.910378,-84.69885,902.37,NaN,,5.83,10.374194,131.2,16 / 21,29015,2020-02-12 20:33:23:441
0.4776,0.7051,6.7107,-1.4714,0.6591,9.6732,2.4181,1.3541,-1.8643,1.2261,0.2194,-0.3705,0.0,-132.6,-90.35,-259.65,113.41,-3.85,8.65,3.1,977.84,57.303,33.91037,-84.69884,904.52,NaN,,4.97,10.374194,131.4,16 / 22,29515,2020-02-12 20:33:23:941
4.4973,-0.0814,8.4907,-0.0898,1.4394,9.7,-0.0049,0.3499,1.6837,1.0991,0.0179,0.1403,2.0,-138.49,-93.26,-256.36,109.0,-10.56,-2.66,3.1,977.86,62.705,33.91037,-84.69884,904.52,NaN,,4.97,10.374194,131.4,16 / 22,30016,2020-02-12 20:33:24:442
-1.8578,3.0154,9.1191,0.984,1.1102,9.6938,-0.893,0.5883,1.2914,-1.1256,-0.5309,0.13,3.0,-137.98,-89.85,-260.1,119.99,-4.03,-3.26,3.1,977.86,49.33,33.910355,-84.69882,903.87,NaN,,4.9,10.374194,131.1,16 / 22,30516,2020-02-12 20:33:24:942
1.6543,1.2916,9.3645,1.733,2.0012,9.4426,-1.423,-0.733,0.4777,-0.3713,-0.781,-0.3741,4.0,-141.65,-96.39,-254.51,104.3,-13.76,-5.73,3.1,977.85,45.807,33.910355,-84.69882,903.87,NaN,,4.9,10.374194,131.1,16 / 22,31015,2020-02-12 20:33:25:441
-0.4202,2.096,9.3286,-0.192,1.0786,9.7453,-0.0594,0.571,1.7713,-0.7523,0.0896,0.3414,4.0,-131.08,-95.89,-256.22,116.41,-6.31,1.13,3.1,977.83,48.144,33.910347,-84.69881,904.62,NaN,,4.79,10.374194,133.0,16 / 22,31515,2020-02-12 20:33:25:941
-0.9421,1.7393,11.0464,0.3762,1.5047,9.6832,-0.5554,0.8925,-0.8214,-0.9981,-0.52,0.0114,4.0,-134.06,-97.18,-252.35,106.55,-12.61,-2.6,3.1,977.85,45.394,33.910347,-84.69881,904.62,NaN,,4.79,10.374194,133.0,16 / 22,32015,2020-02-12 20:33:26:441
2.0661,0.5734,10.2479,0.7329,0.6996,9.7542,1.1875,0.0971,0.8221,0.1575,-0.1592,-0.7165,5.0,-135.6,-90.69,-259.1,121.64,-4.09,-4.3,3.1,977.84,54.616,33.910343,-84.69879,905.02,NaN,,3.71,10.374194,132.8,16 / 22,32516,2020-02-12 20:33:26:942
1.4293,-0.0622,10.8393,1.1338,1.921,9.5496,0.6628,-1.8417,0.8935,1.0307,0.0282,-0.375,5.0,-132.13,-89.78,-259.79,124.35,-4.76,-7.3,3.1,977.83,57.804,33.910343,-84.69879,905.02,NaN,,3.71,10.374194,132.8,16 / 22,33016,2020-02-12 20:33:27:442
4.6841,0.7948,8.8199,1.539,1.3587,9.5893,-0.658,-0.0383,0.9706,-0.031,0.1128,-0.5119,6.0,-134.58,-92.64,-258.61,120.21,-7.96,-9.12,3.1,977.83,55.312,33.910336,-84.69878,904.8,NaN,,5.58,10.374194,129.8,16 / 22,33515,2020-02-12 20:33:27:941
0.9433,0.7996,9.4974,1.1249,1.6985,9.5927,-0.3041,-0.1742,-0.4404,-0.0144,0.4374,0.3456,6.0,-130.83,-91.91,-258.54,116.46,-9.76,-9.19,3.1,977.82,47.056,33.910336,-84.69878,904.8,NaN,,5.58,10.374194,129.8,16 / 22,34015,2020-02-12 20:33:28:441
1.6711,1.7405,6.6819,1.4542,1.848,9.5205,-0.0649,0.259,-2.6058,0.9187,-0.0243,-0.6381,5.0,-128.85,-96.06,-256.43,113.52,-11.63,-8.46,3.1,977.81,58.253,33.910328,-84.69876,905.29,NaN,,4.75,10.374194,129.0,16 / 22,34515,2020-02-12 20:33:28:941
2.1511,1.9117,7.8742,1.9387,0.4775,9.6012,1.4498,-0.3182,0.7719,0.4553,-0.085,-0.9144,1.0,-123.14,-86.55,-260.05,126.16,-4.32,-6.97,3.1,977.83,44.153,33.910328,-84.69876,905.29,NaN,,4.75,10.374194,129.0,16 / 22,35015,2020-02-12 20:33:29:441
1.4951,-0.3926,10.3042,1.0782,1.3816,9.6488,2.0193,-0.9504,-0.5564,1.0929,-1.0388,-2.317,4.0,-113.69,-81.16,-261.6,116.36,-8.1,-6.38,3.1,977.85,52.728,33.910324,-84.69875,904.55,NaN,,1.37,10.374194,115.2,16 / 22,35515,2020-02-12 20:33:29:941
0.3076,4.2088,7.9448,0.3049,4.2579,8.8288,-0.4361,0.3893,1.2637,0.2951,-0.3817,-0.1533,3.0,-110.17,-73.51,-260.94,69.31,-23.68,-1.83,3.1,977.81,45.295,33.910324,-84.69875,904.55,NaN,,1.37,10.374194,115.2,16 / 22,36016,2020-02-12 20:33:30:442
0.0275,4.0448,8.4943,0.1264,4.2697,8.8275,-0.4103,0.1272,8.0E-4,0.0737,-0.0441,-0.1201,1.0,-111.33,-73.07,-260.69,65.55,-26.0,-0.58,3.1,977.82,38.769,33.910324,-84.69875,904.55,NaN,,1.37,10.374194,115.2,16 / 22,36515,2020-02-12 20:33:30:941